ACCELEROMETER X (m/s²),ACCELEROMETER Y (m/s²),ACCELEROMETER Z (m/s²),GRAVITY X (m/s²),GRAVITY Y (m/s²),GRAVITY Z (m/s²),LINEAR ACCELERATION X (m/s²),LINEAR ACCELERATION Y (m/s²),LINEAR ACCELERATION Z (m/s²),GYROSCOPE X (°/s),GYROSCOPE Y (°/s),GYROSCOPE Z (°/s),LIGHT (lux),MAGNETIC FIELD X (μT),MAGNETIC FIELD Y (μT),MAGNETIC FIELD Z (μT),ORIENTATION Z (azimuth °),ORIENTATION X (pitch °),ORIENTATION Y (roll °),SOUND LEVEL (dB)
0.048,-0.158,9.774,0.088,-0.164,9.805,-0.039,0.005,0.033,0,-0.3,0,21.979,20.8,-22.7,-82.9,221.7,1,-0.5,43.72
0.065,-0.17,9.726,0.087,-0.167,9.805,-0.022,-0.004,-0.015,0.1,-0.3,0,21.726,20.9,-22.5,-82.6,222.9,1,-0.5,43.72
0.041,-0.175,9.757,0.086,-0.167,9.805,-0.044,-0.008,0.014,0.1,-0.3,0,21.642,20.9,-22.4,-82.5,222.9,1,-0.5,39.93
0.072,-0.21,9.769,0.089,-0.167,9.805,-0.016,-0.044,0.021,0,-0.3,0,21.642,21.1,-22.2,-82.6,222.9,1,-0.5,39.93
0.077,-0.215,9.562,0.091,-0.173,9.805,-0.014,-0.044,-0.166,0,-0.4,0,21.558,21.2,-22.4,-82.7,222.9,1,-0.5,39.93
0.044,-0.194,9.719,0.087,-0.173,9.805,-0.042,-0.021,-0.013,0,-0.3,0,20.968,21.2,-22.3,-82.7,222.8,1,-0.5,40.78
0.027,-0.172,9.821,0.083,-0.173,9.805,-0.056,0,0.079,0,-0.3,0,20.884,21.2,-22.1,-82.9,222.8,1,-0.5,40.78
0.089,-0.179,9.659,0.085,-0.173,9.805,0.004,-0.008,-0.059,0.2,-0.3,0,20.884,21.1,-22.1,-82.9,222.8,1,-0.5,40.78
0.075,-0.177,9.757,0.087,-0.173,9.805,-0.012,-0.006,0.034,-0.1,-0.3,0,20.547,20.9,-22.3,-83,222.8,1,-0.5,40.78
0.058,-0.175,9.774,0.083,-0.166,9.805,-0.025,-0.009,0.017,-0.1,-0.4,0,20.547,21.1,-22.4,-83,222.8,1,-0.5,39.89
0.072,-0.136,9.743,0.086,-0.163,9.805,-0.013,0.025,-0.012,0.1,-0.4,0,20.547,21.1,-22.3,-82.7,222.9,1,-0.5,39.89
0.065,-0.215,9.781,0.088,-0.165,9.805,-0.022,-0.051,0.024,0.2,-0.2,0,20.716,20.4,-21.8,-80.9,221.6,1,-0.5,39.89
0.07,-0.196,9.743,0.088,-0.167,9.805,-0.018,-0.03,-0.012,0.1,-0.2,0,20.8,19.8,-21.5,-79.6,222.8,1,-0.5,40.1
0.032,-0.146,9.764,0.081,-0.161,9.805,-0.049,0.015,0.008,0.4,-0.1,-0.1,20.884,18.4,-20.5,-76.3,219.9,0.9,-0.5,40.1
0.053,-0.196,9.705,0.079,-0.162,9.805,-0.025,-0.034,-0.046,0.1,0,-0.1,20.884,17.5,-19.7,-74.6,221.2,0.9,-0.5,40.1
-0.03,0.004,9.888,0.036,-0.151,9.805,-0.066,0.155,0.111,1.2,1.5,0.6,21.053,15.8,-18.3,-71.9,220.4,0.9,-0.2,40.48
0.025,-0.241,9.545,0.01,-0.154,9.805,0.015,-0.088,-0.206,0.2,3.4,0.9,21.726,15.5,-17.6,-70.8,220.1,0.9,-0.1,40.48
0.098,-0.186,9.924,0.02,-0.153,9.805,0.078,-0.035,0.167,0.6,-2.5,-1.5,21.979,14.9,-17.2,-69.8,219.9,0.9,-0.1,40.48
-0.459,-0.053,9.821,-0.014,-0.133,9.806,-0.444,0.08,0.058,1,-1.2,2.3,21.979,14.6,-17.2,-69.7,219.7,0.8,0.1,39.47
0.02,-0.129,9.935,0.01,-0.153,9.805,0.01,0.024,0.144,-1.6,3.1,6.4,22.063,14.5,-17.2,-69.9,220,0.9,-0.1,39.47
0.015,-0.275,9.486,-0.06,-0.188,9.805,0.074,-0.088,-0.271,-2.3,10.2,10.3,22.232,14.2,-17.3,-69.4,216.6,1.1,0.3,39.47
-0.402,-0.034,9.836,-0.307,-0.153,9.801,-0.096,0.118,0.078,-0.8,2.8,8.9,22.232,14.3,-17.2,-68.5,214.6,1,1.2,39.47
-0.156,-0.098,9.907,-0.305,-0.152,9.801,0.147,0.054,0.134,-0.8,-0.2,6.3,22.821,13.9,-16.4,-66.3,215,0.9,1.8,40.45
-0.235,-0.006,9.833,-0.305,-0.165,9.801,0.013,-0.043,0.089,-1.1,1.3,9,23.495,13.8,-16,-64.8,215,1,1.8,40.45
-0.313,-0.198,9.774,-0.316,-0.182,9.8,0.002,-0.017,-0.013,-3.9,-0.1,8.5,23.326,14,-13.9,-61,218.5,1.1,1.8,40.45
-0.511,-0.267,9.695,-0.37,-0.281,9.796,-0.143,0.012,-0.054,1.1,7.1,9.6,23.326,14.1,-13,-59,219.6,1.5,1.9,41.61
-0.692,-0.37,9.657,-0.487,-0.269,9.791,-0.207,-0.103,-0.079,2.6,8.2,9.5,22.4,14.6,-12,-55.7,222,1.6,2.8,41.61
-0.544,-0.103,9.847,-0.591,-0.249,9.786,-0.094,-0.022,0.08,0.2,7.3,10.5,22.737,14.8,-11.7,-54.2,221.2,1.5,3.5,41.61
-0.418,-0.341,9.538,-0.673,-0.23,9.781,0.251,-0.113,-0.185,-1.9,1.2,15.9,22.737,15.7,-11.2,-51.7,225.4,1.3,3.9,41.13
-0.742,-0.103,9.652,-0.695,-0.231,9.779,0.05,0.05,-0.107,-0.7,4.4,19.3,23.242,16.1,-11.2,-50.2,225.5,1.4,4.1,41.13
-0.837,-0.236,9.674,-0.782,-0.214,9.773,-0.062,-0.024,-0.02,-1.1,0.5,16.4,23.074,16.9,-10.9,-48.5,227.2,1.2,4.6,41.13
-0.882,-0.205,9.926,-0.811,-0.207,9.771,-0.075,0,0.208,-0.4,2.7,15.6,22.568,17,-10.9,-47.6,227.1,1.2,4.7,45.73
-0.954,-0.158,10.269,-0.9,-0.189,9.763,-0.053,0.032,0.492,-1.9,0.1,15,22.568,17.3,-10.7,-46.8,226.6,1.1,5.3,45.73
-1.204,-0.027,9.74,-0.969,-0.18,9.757,-0.234,0.153,-0.029,-2.4,6.3,13.8,22.653,17.5,-10.4,-46.1,230.9,1,5.7,45.73
-1.104,-0.203,9.6,-1.107,-0.191,9.742,0.002,-0.012,-0.134,-1.6,5.6,12.5,22.4,17.5,-9.9,-44.5,229.6,1.1,6.5,45.73
-1.208,-0.177,9.574,-1.18,-0.192,9.733,-0.031,0.014,-0.135,-1.6,5.7,12.7,22.316,17.7,-9.9,-43.5,229.4,1.1,6.9,46.63
-1.199,-0.279,9.674,-1.243,-0.205,9.725,0.041,-0.075,-0.026,-1.4,4.3,14.8,22.316,17.8,-9.7,-40.6,229.3,1.2,7.3,46.63
-1.235,-0.032,9.459,-1.296,-0.18,9.719,0.054,0.148,-0.207,-1.7,4.8,18.2,22.063,17.8,-9.5,-38.6,229.7,1.1,7.6,46.63
-1.032,-0.258,9.721,-1.279,-0.191,9.721,0.238,-0.068,0.062,-1.8,-3.8,19.2,21.558,18.1,-9.2,-35.7,233.5,1.1,7.5,46.14
-1.328,-0.153,9.812,-1.252,-0.185,9.725,-0.082,0.031,0.132,-3.3,-3.1,22.2,21.558,18.4,-9.4,-34.5,234.4,1.1,7.3,46.14
-1.147,-0.234,9.716,-1.186,-0.209,9.732,0.032,-0.026,0.045,-2.8,-2.9,17.7,21.305,19,-10.3,-32.9,234.1,1.2,6.9,46.14
-1.125,-0.279,9.686,-1.16,-0.224,9.735,0.028,-0.056,0.011,-2.9,-1.7,17.6,20.547,19.7,-10.7,-32.8,233.5,1.3,6.8,48.17
-1.335,-0.308,9.676,-1.244,-0.26,9.724,-0.098,-0.05,0.013,-2.9,5.3,18.4,20.295,22,-12.1,-33.1,233.7,1.5,7.3,48.17
-1.151,-0.186,9.586,-1.274,-0.257,9.72,0.113,0.069,-0.064,-2.9,1.2,18.6,20.295,23,-12.8,-33.1,233,1.5,7.5,48.17
-1.294,-0.272,9.559,-1.325,-0.27,9.713,0.018,-0.005,-0.058,-3.4,0.1,17.9,19.621,24.5,-14,-33.1,233.6,1.6,7.8,48.64
-1.397,-0.308,9.593,-1.337,-0.285,9.711,-0.073,-0.026,-0.021,-3.5,-0.5,17.9,19.2,25.3,-14.6,-33,231.6,1.7,7.8,48.64
-1.282,-0.286,9.633,-1.304,-0.308,9.715,0.008,0.018,0.023,-3.6,-5.1,17.9,18.526,26.5,-15.3,-32.5,233,1.8,7.6,48.64
-1.13,-0.22,9.586,-1.22,-0.315,9.725,0.076,0.092,-0.03,-4.4,-9.1,16.7,18.526,26.3,-15.6,-32.5,231.9,1.8,7.2,48.64
-0.878,-0.422,9.757,-1.005,-0.388,9.747,0.116,-0.038,0.112,-3.9,-6.2,15.6,18.189,26,-16.3,-31.9,232.5,2.3,5.9,39.48
-0.847,-0.474,9.709,-0.927,-0.428,9.753,0.071,-0.051,0.053,-5.4,-7,16.7,18.021,26,-16.7,-31.7,231,2.5,5.4,39.48
-0.866,-0.451,9.697,-0.913,-0.454,9.754,0.039,0,0.025,-1.1,1.8,16.7,18.021,25.7,-17.3,-30.5,231.3,2.7,5.3,39.48
-1.056,-0.384,9.778,-0.949,-0.444,9.751,-0.114,0.057,0.096,-1.5,0.8,14.7,17.516,25.8,-17.6,-29.7,229.7,2.6,5.6,38.28
-1.144,-0.422,9.662,-0.976,-0.444,9.748,-0.176,0.018,-0.011,-0.5,0.3,16.2,17.432,25,-17.9,-26.6,229,2.6,5.7,38.28
-1.032,-0.36,9.75,-0.961,-0.427,9.75,-0.078,0.064,0.066,-0.8,-5.7,11.2,17.263,24.4,-17.9,-25,228.2,2.5,5.6,38.28
-0.978,-0.205,9.448,-0.891,-0.359,9.759,-0.092,0.151,-0.246,0.4,-3,5.1,17.263,22.6,-18.2,-20.6,228.1,2.1,5.2,39.81
-0.749,-0.486,9.555,-0.836,-0.378,9.764,0.08,-0.111,-0.127,-2.4,-5.6,8.2,18.021,21.7,-18.3,-18.7,227.2,2.2,4.9,39.81
-0.582,-0.558,9.74,-0.657,-0.47,9.773,0.07,-0.092,0.037,-7,-10.3,14,18.021,20,-18.4,-15.2,225.3,2.7,3.8,39.81
-0.497,-0.632,9.652,-0.586,-0.517,9.775,0.085,-0.118,-0.047,-0.3,-1.4,11.2,18.021,19.6,-18.3,-13.6,225.5,3,3.4,41.22
-0.532,-0.553,9.745,-0.526,-0.544,9.777,-0.01,-0.012,0.03,-1.9,-4.2,14.2,18.021,19.3,-18.1,-11.4,224.6,3.2,3.1,41.22
-0.321,-0.582,9.885,-0.473,-0.563,9.779,0.15,-0.021,0.151,-2.4,-3,12.5,18.021,19.4,-18.1,-10.6,224.7,3.3,2.8,41.22
-0.297,-0.672,9.719,-0.419,-0.649,9.776,0.12,-0.025,-0.026,-5.8,-2.7,10.8,18.105,19.9,-17.5,-8.6,226.5,3.8,2.5,41.22
-0.435,-0.639,9.843,-0.411,-0.69,9.774,-0.025,0.05,0.09,-3.7,-0.6,13.2,18.105,20.3,-17.1,-7.6,228.2,4,2.4,40.61
-0.44,-0.824,9.728,-0.376,-0.78,9.768,-0.065,-0.046,-0.02,-4.9,-4,13.1,17.516,20.8,-16.4,-5.3,231.7,4.6,2.2,40.61
-0.471,-0.77,9.607,-0.36,-0.823,9.765,-0.112,0.051,-0.123,-4.4,-3.3,12,17.095,21.4,-16.2,-3.8,231.9,4.8,2.1,40.61
-0.387,-0.901,9.631,-0.286,-0.906,9.761,-0.103,0,-0.07,-2.5,-4.4,5,16.758,22.3,-15.5,-1.3,235.5,5.3,1.7,41.56
0.063,-0.924,9.183,-0.2,-0.934,9.76,0.261,-0.001,-0.46,-1.7,-5.9,4.8,16.758,22.8,-15.4,-0.2,236.9,5.5,1.2,41.56
0.008,-1.046,9.645,-0.092,-0.977,9.757,0.099,-0.08,0.001,-1.1,-3.5,6.1,16.758,23.6,-15.1,1.3,238.3,5.7,0.5,41.56
0.048,-1.041,9.85,-0.053,-0.989,9.756,0.101,-0.061,0.183,-0.2,-2.4,6.3,17.095,24.1,-15.1,1.7,238.5,5.8,0.3,40.61
-0.111,-1.067,9.669,-0.038,-1.024,9.753,-0.074,-0.051,-0.003,-1.8,-1.7,5.5,17.095,24.5,-15.2,1.9,238.5,5.9,0.2,40.61
0.16,-1.122,9.683,-0.003,-1.056,9.75,0.163,-0.074,0.012,-2.2,-2,5.1,17.011,24.7,-15.4,2,239.5,6.2,0,40.61
-0.025,-1.089,9.647,0.037,-1.112,9.743,-0.063,0.015,-0.021,-3,-2.6,2.9,16.926,24.8,-15.3,2.3,239.6,6.3,-0.1,40.61
0.07,-1.205,9.7,0.067,-1.156,9.738,0.003,-0.057,0.031,-3.5,-2.9,1.2,16.505,25.1,-15.5,2.8,239.8,6.8,-0.4,40.8
0.153,-1.186,9.793,0.103,-1.191,9.733,0.05,-0.002,0.115,-2.9,-2.6,1,16.505,25.3,-15.2,3.1,239.9,7,-0.6,40.8
0.098,-1.191,9.945,0.133,-1.236,9.728,-0.034,0.04,0.256,-1.2,-1.4,4,16.505,25.4,-15.1,3.7,240.1,7.2,-0.8,40.8
0.255,-1.334,9.724,0.208,-1.307,9.717,0.048,-0.033,0.049,-1.4,-6.8,1.4,16.253,25.5,-15.1,3.8,240.2,7.5,-0.9,40.92
0.465,-1.377,9.628,0.335,-1.33,9.71,0.132,-0.053,-0.036,-1.4,-12.3,-2.2,16.421,25.5,-15.2,3.8,240.2,7.8,-2,40.92
0.591,-1.289,9.802,0.504,-1.352,9.7,0.125,-0.045,-0.037,-1.5,-15.7,-4.8,16.421,25.5,-15.4,3.5,240.3,7.9,-3,40.92
0.693,-1.284,9.795,0.823,-1.364,9.676,-0.128,0.078,0.137,-2.3,-12.7,-5.5,17.516,25.2,-15.2,2.5,240.2,8,-4.9,41.34
0.989,-1.277,9.738,0.957,-1.37,9.663,0.032,0.092,0.084,-1.7,-9.3,-2.5,17.516,25,-15.1,2.1,240,8,-5.7,41.34
1.112,-1.415,9.224,1.201,-1.419,9.629,-0.081,-0.005,-0.341,-0.5,-12.5,0.2,18.105,24.8,-14.9,0.8,240,8.3,-7.1,41.34
1.329,-1.322,9.988,1.331,-1.392,9.616,0,0.068,0.391,2.5,-11.8,-0.3,19.284,24.9,-14.6,0.2,239.9,8.2,-7.9,40.43
1.572,-1.538,9.495,1.589,-1.417,9.573,-0.013,-0.125,-0.051,-1.8,-15.2,2.7,20.547,24.7,-14,-0.6,241.6,8.3,-9.4,40.43
1.75,-1.393,9.476,1.761,-1.429,9.541,-0.005,0.031,-0.033,-0.2,-16.1,0.9,21.811,24.6,-13.6,-1.1,241.7,8.4,-10.5,40.43
2.019,-1.396,9.405,2.061,-1.401,9.485,-0.037,0.002,-0.056,-0.6,-12,-4,21.811,24.8,-13,-2.3,243.5,8.2,-12.3,40.43
2.093,-1.367,9.371,2.195,-1.384,9.457,-0.094,0.012,-0.053,1.9,-12.6,-4.5,22.737,25,-12.7,-2.6,243.5,8.1,-13.1,40.95
2.56,-1.291,9.388,2.52,-1.27,9.392,0.043,-0.022,0.007,3.7,-13.3,-5.3,24.758,25,-12.2,-3.4,245.4,7.4,-15,40.95
2.648,-1.246,9.119,2.67,-1.215,9.358,-0.018,-0.033,-0.224,3.5,-12.4,-6.2,26.274,25.1,-12,-3.9,245.4,7.1,-15.9,40.95
2.867,-1.12,9.145,2.922,-1.105,9.296,-0.051,-0.016,-0.137,2,-10.3,-4.3,26.274,25.1,-11.7,-4.9,245.4,6.5,-17.5,40.72
2.767,-1.117,9.109,3.007,-1.077,9.272,-0.229,-0.044,-0.127,2.3,-8.4,-2.8,27.537,24.8,-11.5,-5.6,247.3,6.3,-18,40.72
3.248,-1.055,9.162,3.228,-0.969,9.209,0.03,-0.089,-0.016,6.7,-13.5,-2.9,29.726,24.8,-11,-6.7,247.4,5.7,-19.3,40.72
3.369,-0.917,9.071,3.397,-0.887,9.157,-0.015,-0.034,-0.048,7.2,-17.2,-3.9,29.726,24.7,-11,-7.4,247.4,5.2,-20.4,40.88
3.8,-0.732,9.033,3.751,-0.699,9.034,0.056,-0.034,0.016,4.1,-12,-0.6,32.505,24.3,-10.6,-8.7,246.9,4.1,-22.5,40.88
3.752,-0.677,8.983,3.859,-0.662,8.991,-0.1,-0.016,0.009,2.2,-8.7,-0.9,34.021,24.2,-10.7,-9.2,247,3.9,-23.2,40.88
3.928,-0.679,8.724,4.053,-0.602,8.91,-0.107,-0.079,-0.148,4,-11.9,-3.4,34.863,24.1,-10.7,-10.6,247.4,3.5,-24.5,41.58
4.128,-0.56,8.871,4.183,-0.535,8.854,-0.039,-0.027,0.052,5.8,-13.9,-4.8,34.863,23.7,-10.7,-11.1,247.4,3.1,-25.3,41.58
4.402,-0.327,8.705,4.48,-0.389,8.715,-0.065,0.061,0.015,2.2,-14.3,-6.4,36.042,23.4,-10.8,-11.8,247,2.7,-26.2,41.58
4.488,-0.322,8.75,4.58,-0.345,8.665,-0.082,0.022,0.105,0.2,-7.4,-4.7,36.379,23.1,-10.8,-13,247.4,2,-27.9,41.58
4.745,-0.358,8.483,4.741,-0.301,8.579,0.018,-0.058,-0.07,0.8,-10,-5.8,35.874,22.6,-10.6,-13.9,247.7,1.8,-28.9,41.44
5.045,-0.403,8.543,4.85,-0.275,8.519,0.201,-0.128,0.036,1.1,-8.2,-5.7,35.874,22.2,-10.6,-14.5,247,1.6,-29.7,41.44
4.973,-0.232,8.381,5.093,-0.241,8.377,-0.106,0.008,0.026,-1,-15.1,-2.1,35.284,22.2,-10.9,-15.4,247.5,1.4,-31.3,41.44
5.095,-0.115,8.257,5.227,-0.223,8.295,-0.114,0.107,-0.008,-1.4,-14.2,-3.3,33.937,21.8,-10.9,-15.8,247.9,1.3,-32.2,41.23
5.192,-0.227,8.253,5.397,-0.214,8.185,-0.189,-0.013,0.092,-1.1,-6.9,-2.6,33.937,21.1,-11.1,-16.3,247.3,1.3,-33.4,41.23
5.271,-0.325,8.212,5.444,-0.223,8.154,-0.156,-0.102,0.084,-2.1,-6.6,-3.7,32.842,21,-11.2,-16.7,247.7,1.3,-33.7,41.23
5.483,-0.31,8.103,5.575,-0.233,8.065,-0.076,-0.078,0.062,-3.4,-7.5,-5.4,31.747,20.8,-11.2,-17,247.7,1.4,-34.7,40.88
5.509,-0.332,8.06,5.63,-0.242,8.026,-0.104,-0.09,0.058,-3.6,-6.5,-5.5,30.316,20.4,-11,-17,247.1,1.4,-35,40.88
5.595,-0.196,8.003,5.719,-0.226,7.963,-0.106,0.03,0.065,-4.7,-4.6,-7.2,30.316,20.3,-10.9,-16.7,247.1,1.3,-35.7,40.88
5.706,-0.217,7.91,5.761,-0.221,7.933,-0.035,0.003,0.004,-6,-4.8,-9.2,27.958,20.2,-10.9,-16.9,247.1,1.3,-36,41.36
5.799,-0.26,7.969,5.825,-0.212,7.886,-0.015,-0.049,0.098,-9.7,-5.2,-14.4,25.6,20,-10.4,-16.7,249,1.2,-36.4,41.36
5.854,-0.255,7.774,5.903,-0.21,7.828,-0.034,-0.046,-0.035,-12.8,-11.2,-18.5,25.6,19.7,-10.4,-16.6,249.1,1.2,-37,41.36
6.018,-0.239,7.629,6.096,-0.212,7.679,-0.058,-0.028,-0.025,-15.8,-10.8,-21.4,20.379,18.8,-9.5,-16.5,248,1.2,-38.4,41.36
6.218,-0.234,7.448,6.209,-0.207,7.588,0.034,-0.028,-0.109,-16.5,-11.6,-21.9,15.158,18.4,-9,-16.2,249.5,1.2,-39.3,43.27
6.323,-0.344,7.493,6.363,-0.214,7.459,-0.018,-0.131,0.06,-14.4,-5.1,-18.1,12.463,17.5,-7.7,-15.5,251.2,1.2,-40.5,43.27
6.273,-0.255,7.508,6.402,-0.212,7.426,-0.108,-0.045,0.107,-13.2,-6.6,-16.3,12.463,17,-7.1,-14.9,252.8,1.2,-40.8,43.27
6.523,-0.272,7.369,6.542,-0.205,7.302,-0.003,-0.068,0.086,-10.4,-7.8,-12.4,11.368,16.5,-6.4,-14.3,254.2,1.2,-41.3,43.03
6.563,-0.082,7.265,6.62,-0.187,7.233,-0.04,0.105,0.05,-10.9,-11.2,-12.4,10.695,15.4,-5.3,-13.1,255.9,1.1,-42.5,43.03
6.73,-0.134,6.917,6.826,-0.177,7.038,-0.079,0.042,-0.103,-12.9,-16,-13.8,10.021,14.7,-4.9,-12.5,255.4,1.1,-43.2,43.03
6.887,-0.21,6.977,6.932,-0.178,6.935,-0.029,-0.033,0.058,-15.4,-10.7,-16.1,10.021,13,-4.3,-11.4,256.8,1,-45,42.57
7.185,-0.125,6.603,7.143,-0.156,6.717,0.051,0.031,-0.105,-18.9,-17.5,-19.2,9.179,12.1,-4.1,-11,256.2,1,-45.7,42.57
7.323,-0.255,6.479,7.289,-0.158,6.558,0.045,-0.098,-0.069,-18.6,-18,-18.6,8.674,10.3,-3.5,-9.9,254.2,0.9,-48,42.57
7.477,-0.317,6.315,7.576,-0.138,6.225,-0.087,-0.18,0.1,-17.5,-13.6,-15.4,8.674,9.2,-3.4,-9.2,256.8,0.8,-49.4,43.29
7.518,-0.298,6.241,7.645,-0.133,6.14,-0.115,-0.165,0.111,-15.8,-5.6,-13.6,8.674,6.8,-3.2,-8,254.3,0.8,-51.2,43.29
7.663,-0.458,6.286,7.678,-0.159,6.098,-0.015,-0.299,0.189,-14.8,-3.2,-13.4,7.663,5.7,-2.9,-7.3,252,0.8,-51.5,43.29
7.749,0.04,5.991,7.722,-0.125,6.043,0.028,0.165,-0.051,-13,-7.4,-11.7,7.411,3.5,-2.6,-6.2,245.3,0.7,-52,40.95
7.737,-0.132,5.863,7.819,-0.118,5.917,-0.067,-0.013,-0.043,-14.4,-7.5,-12,7.411,2.4,-2.6,-5.5,243.1,0.7,-52.4,40.95
7.896,-0.117,5.753,7.88,-0.112,5.837,0.034,-0.005,-0.071,-13.5,-8.1,-10.7,6.989,0.4,-2.8,-4.8,232.9,0.7,-53.5,40.95
7.849,-0.241,5.922,7.911,-0.121,5.794,-0.049,-0.121,0.138,-13.8,-3.9,-11,6.989,-0.3,-2.9,-4.6,233,0.7,-53.8,40.95
8.03,-0.146,5.52,8.071,-0.116,5.57,-0.018,-0.031,-0.034,-17.9,-19.1,-13.7,6.737,-1.9,-3.4,-3.8,215.3,0.7,-55.4,40.2
8.144,-0.244,5.346,8.199,-0.123,5.379,-0.029,-0.121,-0.016,-18.6,-20.8,-13.2,6.063,-2.6,-3.4,-3.1,195.8,0.7,-56.7,40.2
8.323,-0.158,5.327,8.346,-0.117,5.147,-0.004,-0.041,0.192,-19.5,-7.8,-13.1,6.063,-4.2,-3.5,-1.4,162.9,0.7,-58.3,40.2
8.394,-0.165,5.113,8.415,-0.112,5.034,-0.006,-0.053,0.088,-25.1,-16.7,-16.8,5.389,-5.1,-3.4,-0.5,139.9,0.7,-59.1,40.82
8.696,-0.136,4.254,8.682,-0.097,4.558,0.028,-0.04,-0.297,-33.3,-28.4,-19.4,4.463,-6.9,-3.1,2.4,121.3,0.6,-62.3,40.82
8.749,-0.122,4.313,8.791,-0.085,4.345,-0.028,-0.037,-0.025,-29.1,-13.1,-15.9,4.463,-7.8,-2.9,3.8,113.1,0.5,-63.7,40.82
8.772,-0.125,4.313,8.857,-0.061,4.209,-0.07,-0.064,0.111,-17.5,-2.1,-9.2,3.874,-9.2,-3.1,6.4,108.1,0.4,-64.6,40.82
8.801,-0.141,4.282,8.861,-0.055,4.201,-0.045,-0.086,0.088,-13,0.3,-6.6,3.621,-10.1,-3.1,7.7,104.8,0.3,-64.6,39.01
8.768,-0.194,4.446,8.824,-0.066,4.279,-0.047,-0.128,0.172,-9.9,2.8,-5.4,3.621,-11,-3.5,9.8,102.4,0.4,-64.1,39.01
8.73,-0.158,4.499,8.797,-0.07,4.334,-0.061,-0.088,0.168,-10.6,4,-5.8,3.621,-11.5,-3.8,10.3,106.3,0.4,-63.8,39.01
8.715,-0.208,4.344,8.799,-0.082,4.33,-0.071,-0.126,0.02,-13.4,-4.1,-7.5,3.537,-12.2,-4.2,11.5,104.9,0.5,-63.8,36.54
8.744,-0.141,4.313,8.814,-0.082,4.299,-0.053,-0.06,0.023,-15.2,-2.7,-8.2,3.032,-12.5,-4.1,12.1,104.2,0.5,-64,36.54
8.849,-0.141,4.301,8.849,-0.084,4.226,0.012,-0.058,0.081,-13.6,-3,-6.9,3.116,-12.8,-4.6,12.8,106.3,0.5,-64.5,36.54
8.863,-0.134,4.211,8.858,-0.085,4.207,0.015,-0.049,0.009,-12.6,-0.5,-6.5,3.116,-13,-4.7,13.1,106.3,0.5,-64.6,37.25
8.789,-0.148,4.33,8.838,-0.089,4.25,-0.042,-0.06,0.083,-12.8,3.7,-6.8,2.695,-13.4,-5.2,14.2,105.5,0.5,-64.3,37.25
8.768,-0.12,4.401,8.814,-0.086,4.299,-0.04,-0.034,0.105,-11.8,3.6,-6.4,2.779,-13.4,-5.6,14.5,108.3,0.5,-64,37.25
8.758,-0.084,4.334,8.815,-0.077,4.298,-0.051,-0.007,0.039,-11,-1.8,-5.7,2.779,-14,-6.2,14.8,107.1,0.5,-64,36.96
8.806,-0.11,4.251,8.817,-0.08,4.292,-0.004,-0.03,-0.037,-6.7,1.5,-3.1,2.695,-14.2,-6.4,14.8,107.1,0.5,-64,36.96
8.694,-0.158,4.532,8.742,-0.088,4.443,-0.045,-0.07,0.09,-8.4,2.7,-4.7,2.274,-14.5,-7.3,14.9,109.3,0.5,-63.1,36.96
8.67,-0.06,4.249,8.752,-0.079,4.423,-0.065,0.019,-0.165,-11.9,-4,-6.8,2.695,-14.7,-7.6,14.9,111.8,0.5,-63.2,37.7
8.694,-0.082,4.508,8.76,-0.072,4.408,-0.049,-0.01,0.109,-10.4,-1.4,-6,2.695,-14.9,-8,14.8,111.8,0.4,-63.3,37.7
8.756,-0.141,4.342,8.788,-0.067,4.352,-0.019,-0.074,-0.004,-12.5,-5.4,-6.2,2.274,-15.1,-8.5,14.8,114.2,0.4,-63.7,37.7
8.858,-0.039,4.311,8.841,-0.06,4.242,0.028,0.021,0.074,-15.2,-4.7,-7.6,2.274,-15.6,-8.8,15,113.9,0.4,-64.4,36
8.851,-0.127,4.004,8.877,-0.065,4.166,-0.007,-0.062,-0.154,-16.3,-6.9,-8,2.274,-15.8,-9.4,15.2,114,0.4,-64.9,36
8.891,0.014,4.056,8.923,-0.042,4.067,-0.011,0.055,-0.002,-14.5,-3.2,-7.5,2.189,-16.1,-9.6,15.5,116.3,0.3,-65.2,36
8.872,-0.044,4.192,8.933,-0.033,4.045,-0.043,-0.011,0.155,-14.1,-4.5,-7.4,2.021,-16.3,-10.4,16.3,115.3,0.2,-65.6,36
8.918,-0.072,4.13,8.968,-0.031,3.968,-0.038,-0.042,0.167,-14.8,-3.6,-7,1.684,-16.9,-11.3,17.3,116.2,0.2,-66.1,38.3
9.008,-0.07,3.896,8.989,-0.029,3.92,0.029,-0.04,-0.019,-17,-4.9,-8.3,1.684,-17,-11.9,17.6,117.3,0.2,-66.4,38.3
8.977,-0.141,3.801,9.024,-0.033,3.838,-0.03,-0.109,-0.03,-19.6,-1.3,-9.2,1.6,-17.8,-12.3,18.5,117,0.2,-67,38.3
8.989,-0.075,3.88,9.026,-0.021,3.833,-0.021,-0.054,0.054,-20.8,-1,-11.5,1.516,-18.2,-12.5,19.2,116.1,0.1,-67,37.88
8.996,0.021,3.844,9.029,0.029,3.828,-0.015,-0.009,0.024,-17.1,1.2,-8.4,1.347,-19.3,-13.1,19.9,116.7,-0.2,-67,37.88
8.896,-0.041,4.115,9.004,0.024,3.886,-0.091,-0.065,0.236,-15.3,4.1,-5.8,1.347,-19.7,-13.7,20,118,-0.1,-66.7,37.88
8.887,0.021,4.068,8.949,0.013,4.01,-0.043,0.008,0.067,-18.6,7,-9,1.347,-20.7,-14.2,20.8,116.7,-0.1,-65.9,37.72
8.856,-0.015,4.177,8.912,0.019,4.093,-0.037,-0.034,0.093,-16.1,6.4,-8.4,1.347,-21.2,-14.5,20.9,118.4,-0.1,-65.9,37.72
8.825,0.011,4.268,8.825,0.025,4.277,0.015,-0.014,-0.002,-12.6,8.9,-7.8,1.347,-21.2,-14.9,21,118.2,-0.1,-64.7,37.72
8.708,0.109,4.501,8.77,0.047,4.388,-0.048,0.062,0.119,-13.2,9.7,-7.4,1.347,-27.8,0.5,13.5,87.4,-0.3,-63.4,39.21
8.601,-0.094,4.682,8.663,0.048,4.596,-0.058,-0.141,0.088,-7.8,8.1,-3.6,1.516,-28.2,0,13.5,89.8,-0.3,-62.1,39.21
8.418,-0.058,5.096,8.586,0.03,4.739,-0.167,-0.088,0.358,-7.8,11.4,-3.3,1.516,-28.1,-0.5,13.4,89.9,-0.2,-61.1,39.21
8.527,-0.063,4.78,8.541,0.005,4.819,-0.003,-0.068,-0.034,-15,0.4,-8,1.516,-28.3,-0.7,13.4,92.2,-0.1,-60.6,39.21
8.413,0.059,4.875,8.517,0.011,4.862,-0.086,0.048,0.023,-13.6,6.6,-8.1,1.347,-28.6,-0.8,13.8,92.1,-0.1,-60.3,39.38
7.996,-0.075,5.532,8.286,0.008,5.245,-0.266,-0.083,0.301,-12.8,26.7,-7.8,1.516,-30.8,5.9,12,77,-0.1,-59.4,39.38
8.011,-0.217,5.51,8.112,-0.013,5.511,-0.073,-0.205,0.018,-14.6,27.2,-10.6,1.768,-31,6.4,12.1,77.7,0.1,-55.8,39.38
7.554,0.121,6.205,7.92,0,5.783,-0.054,0.275,0.147,-14.6,29.9,-11,1.768,-31.3,6.5,12,77.9,0,-53.9,49.3
7.425,0.009,6.203,7.594,0.019,6.205,-0.142,-0.011,0.02,-11.7,17.3,-9.5,2.021,-32,7,11.2,76.3,-0.1,-50.7,49.3
7.325,-0.008,6.348,7.324,0.031,6.521,0.028,-0.039,-0.149,-10.7,16.1,-9.7,2.274,-32.2,7,10.4,76.1,-0.2,-49.5,49.3
7.273,-0.053,6.655,7.171,0.033,6.689,0.127,-0.086,-0.01,-11.1,23.5,-10.7,2.274,-32.8,6.5,9,78.2,-0.2,-47,49.3
6.621,0.063,7.07,7.001,0.039,6.867,0.06,-0.006,0.016,-9,19.2,-9.5,2.695,-32.8,6.4,8.3,78.1,-0.2,-45.6,43.51
6.88,0.002,6.941,6.724,0.053,7.138,0.18,-0.051,-0.172,-9.1,19.1,-10.7,3.116,-33.1,5.6,7,78.1,-0.3,-43.3,43.51
6.361,0.202,7.393,6.55,0.063,7.298,-0.165,0.139,0.121,-7.3,21.2,-8.6,3.453,-32.9,5.1,6.1,79.9,-0.4,-41.9,43.51
5.978,0.054,7.781,6.102,0.077,7.676,-0.103,-0.022,0.132,-8,26,-10.5,3.453,-32.9,4.6,4.7,79.9,-0.4,-38.5,39.95
5.618,0.094,7.924,5.85,0.08,7.87,-0.21,0.015,0.082,-8.8,28.3,-11.5,3.958,-32.6,4.1,3.7,81.9,-0.5,-36.6,39.95
5.416,0.03,8.188,5.391,0.092,8.191,0.043,-0.062,0.025,-8.9,16.8,-15.3,4.968,-32.1,3.3,1.8,83.5,-0.5,-33.4,39.95
5.049,0.185,8.343,5.221,0.105,8.301,-0.153,0.08,0.071,-6.6,17.4,-12.1,5.053,-32,3.2,0.7,83.4,-0.6,-32.2,41.03
4.369,0.066,8.741,4.835,0.119,8.531,-0.45,-0.053,0.239,-5.8,21.7,-11.4,5.053,-31.5,2.3,-1.4,85.3,-0.7,-29.5,41.03
4.362,0.183,8.821,4.603,0.128,8.658,-0.226,0.055,0.193,-7.1,22.8,-14.1,6.063,-31.1,1.7,-2.5,85.1,-0.7,-28,41.03
3.952,0.061,9.071,4.21,0.131,8.856,-0.245,-0.07,0.244,-6.8,18.4,-14.2,6.568,-30.7,0.8,-4.9,87.3,-0.8,-25.4,40.61
3.869,0.111,8.993,4.032,0.134,8.938,-0.15,-0.023,0.083,-6.3,14.7,-14.8,6.568,-30.7,0.7,-6,87.2,-0.8,-24.3,40.61
3.69,0.052,8.986,3.794,0.129,9.042,-0.089,-0.077,-0.02,-5.5,7.7,-13.7,6.484,-30.5,-0.5,-7.9,91.7,-0.8,-22.8,40.61
3.636,0.073,8.96,3.688,0.129,9.086,-0.033,-0.056,-0.08,-5.1,11.8,-14.4,6.905,-30.2,-1.1,-8.7,91.7,-0.8,-22.1,41.03
2.855,0.106,9.362,3.256,0.131,9.249,-0.388,-0.024,0.152,-2.8,21.1,-7.3,6.905,-30.4,-1.9,-10.6,94,-0.8,-19.4,41.03
2.812,0.068,9.328,3.044,0.125,9.321,-0.219,-0.056,0.047,-3.7,16.9,-8.5,6.905,-30.4,-2.3,-11.5,94,-0.7,-18.1,41.03
2.56,0.068,9.386,2.724,0.119,9.42,-0.152,-0.05,0.006,-3.8,11.9,-13.2,6.821,-30.1,-3.5,-13.1,98.5,-0.7,-16.1,41.03
2.543,0.185,9.547,2.574,0.124,9.462,-0.02,0.062,0.124,-3.5,14.6,-14.2,6.821,-29.9,-4,-14.3,98.4,-0.7,-15.2,39.63
2.364,0.083,9.614,2.301,0.116,9.532,0.069,-0.033,0.106,-2.5,11,-7.5,6.821,-29.7,-5,-16.5,100.6,-0.7,-13.6,39.63
2.119,0.087,9.583,2.16,0.11,9.565,-0.036,-0.023,0.038,-1.2,13.1,-5.8,7.242,-29.3,-5.6,-17.6,103.3,-0.6,-12.7,39.63
1.517,-0.11,9.514,1.791,0.076,9.641,-0.267,-0.186,-0.086,-0.5,14.4,-2.2,7.158,-28.6,-6.1,-19.7,103.1,-0.4,-10.5,40.11
1.422,0.178,9.716,1.638,0.083,9.668,-0.21,0.095,0.088,-0.1,11.9,-6.6,6.737,-28.2,-6.4,-20.7,103.5,-0.5,-9.6,40.11
1.353,0.044,9.871,1.333,0.094,9.715,0.026,-0.049,0.196,-1.4,17.3,-16.6,6.737,-27.1,-7,-22.3,105.9,-0.5,-7.8,40.11
0.96,0.059,9.752,1.119,0.103,9.742,-0.154,-0.044,0.049,-1.4,19.4,-16.3,6.484,-26.4,-7.1,-23.2,106.2,-0.6,-6.5,40.94
0.722,0.085,9.678,0.828,0.11,9.771,-0.104,-0.025,-0.067,-0.9,3,-8.1,6.232,-25.6,-7.6,-24.3,107.9,-0.6,-4.8,40.94
0.822,0.104,9.719,0.797,0.107,9.774,0.028,-0.003,-0.026,-0.5,3,-2.9,5.895,-25.3,-8.1,-24.9,108.6,-0.6,-4.7,40.94
0.398,-0.082,9.683,0.669,0.066,9.784,-0.268,-0.147,-0.061,-0.6,4.5,-5.3,5.895,-24.5,-9,-25.5,110.8,-0.4,-3.9,41.09
0.472,-0.027,9.531,0.608,0.056,9.788,-0.132,-0.083,-0.192,-0.6,3.3,-12.8,5.305,-23.9,-9.4,-26.6,111.6,-0.3,-3.6,41.09
0.301,0.035,9.864,0.406,0.071,9.798,-0.104,-0.036,0.1,1.1,12.4,-19.6,4.968,-22.8,-9.7,-28.3,114.2,-0.4,-2.4,41.09
0.305,0.152,9.931,0.287,0.096,9.802,0.019,0.055,0.145,0.5,8.3,-19.6,4.968,-21.5,-10.3,-30.2,115.7,-0.6,-1.7,47.05
0.224,0.161,9.819,0.171,0.103,9.805,0.054,0.058,0.041,0.4,4.5,-22.2,5.137,-20,-11.5,-32.9,121,-0.6,-1,47.05
0.201,0.173,9.707,0.138,0.115,9.805,0.063,0.058,-0.064,-0.2,2.2,-13.7,5.726,-19.4,-12.1,-34.3,122.1,-0.7,-0.8,47.05
-0.149,0.228,9.793,0.031,0.092,9.806,-0.18,0.136,0.022,-1.1,5.1,-8.4,10.442,-19,-12.8,-35.5,124.2,-0.5,-0.6,47.05
-0.149,0.018,9.721,-0.021,0.081,9.806,-0.128,-0.062,-0.044,0.4,0.9,-15.4,10.442,-19.3,-14.7,-36.4,127.6,-0.5,0.1,40.7
0.103,0.006,9.759,-0.019,0.084,9.806,0.122,-0.077,-0.005,0.4,-0.3,-24.8,16.926,-20.4,-16.3,-36.3,128,-0.5,0.1,40.7
-0.123,0.049,9.678,-0.029,0.08,9.806,-0.094,-0.031,-0.077,-0.3,-0.3,-20.5,16,-21,-17.2,-36.4,128.4,-0.5,0.2,40.7
0.027,0.035,9.738,-0.017,0.058,9.806,0.044,-0.023,-0.008,0.7,-0.1,-14.7,17.684,-21.5,-18.3,-36.7,128.9,-0.3,0.1,46.13
0.146,-0.198,9.783,0.003,0.032,9.807,0.143,-0.23,0.033,0,-0.4,-9.8,17.684,-21.7,-18.7,-37.1,130.6,-0.2,0,46.13
-0.085,0.125,9.667,0.001,0.055,9.806,-0.086,0.071,-0.079,0.3,-0.2,-2.1,17.937,-22,-19.3,-37.6,130.6,-0.3,-0.1,46.13
-0.087,0.125,9.7,-0.007,0.067,9.806,-0.08,0.058,-0.04,0.6,-0.2,-2.3,14.737,-22.1,-19.7,-38.2,131.9,-0.4,0,46.13
0.044,0.059,9.724,-0.002,0.071,9.806,0.046,-0.012,-0.014,0.3,-0.3,-5.4,14.737,-22.2,-20.2,-38.2,131.8,-0.4,0.1,46.99
0.046,0.118,9.809,0.006,0.079,9.806,0.04,0.04,0.063,0.1,-0.3,-5.2,15.074,-22.1,-20.5,-38.6,131.9,-0.5,0,46.99
-0.166,0.049,9.714,0.009,0.061,9.806,-0.005,-0.117,-0.001,-0.6,-0.4,-2.5,13.389,-22.1,-20.6,-38.8,133.4,-0.4,0,46.99
-0.109,0.071,9.716,-0.016,0.061,9.806,-0.093,0.01,-0.023,0.3,-0.2,1,9.095,-21.8,-20.6,-39.1,133.3,-0.4,0.1,46.23
-0.002,0.049,9.676,-0.013,0.059,9.806,0.011,-0.01,-0.056,0,-0.3,0.8,9.095,-21.9,-20.6,-39.4,133.2,-0.4,0.1,46.23
-0.073,0.033,9.693,-0.016,0.057,9.806,-0.057,-0.024,-0.035,0,-0.3,1.2,6.4,-21.7,-20.4,-40.4,131.9,-0.3,0.1,46.23
-0.061,-0.048,9.781,0.008,0.044,9.807,0.169,-0.087,0.037,-0.3,-0.3,4.9,5.895,-21.6,-20.4,-40.9,132.1,-0.3,0,46.41
-0.135,0.09,9.819,-0.009,0.037,9.807,-0.126,0.053,0.072,-0.1,-0.2,9.8,5.389,-21.4,-20,-41.7,133.3,-0.2,0.1,46.41
-0.066,0.018,9.724,-0.009,0.033,9.807,-0.026,-0.045,0.013,0,-0.2,8.4,5.389,-21.4,-19.9,-42,133.3,-0.2,0.1,46.41
-0.035,0.087,9.731,-0.013,0.039,9.807,-0.022,0.048,-0.013,0,-0.3,8.1,5.221,-21.4,-19.4,-43,131.8,-0.2,0.1,46.41
-0.018,0.04,9.728,-0.01,0.038,9.807,-0.008,0.002,-0.014,-0.2,-0.3,7,5.221,-21.1,-19.2,-43.7,131.8,-0.2,0.1,46.69
-0.035,0.011,9.707,-0.005,0.023,9.807,-0.03,-0.012,-0.03,-0.3,-0.2,8.5,5.221,-21.1,-18.7,-44.6,132,-0.1,0,46.69
-0.133,0.147,9.638,-0.017,0.035,9.807,-0.116,0.112,-0.088,0,-0.2,10.9,5.053,-21.1,-18.4,-45.3,130.2,-0.2,0.1,46.69
-0.056,-0.025,9.707,-0.018,0.024,9.807,-0.038,-0.049,-0.022,0,-0.3,11.5,5.053,-21,-17.9,-46.3,130.3,-0.1,0.1,48.1
-0.114,-0.008,9.795,-0.026,0.021,9.807,-0.087,-0.028,0.059,0,-0.2,11.7,5.305,-20.9,-17.6,-46.9,130.3,-0.1,0.2,48.1
-0.033,0.154,9.7,-0.026,0.041,9.807,-0.007,0.113,-0.033,0,-0.1,11.4,5.305,-20.9,-17.2,-47.8,128.5,-0.2,0.2,48.1
-0.09,0.128,9.745,-0.031,0.052,9.806,-0.059,0.076,0.011,0.1,-0.2,10.9,5.137,-21,-16.8,-48.2,128.4,-0.3,0.2,47.97
0.015,-0.046,9.707,-0.017,0.029,9.807,0.031,-0.074,-0.025,-0.4,-0.3,10.5,5.053,-21.3,-16.1,-49.2,126.9,-0.2,0.1,47.97
0.089,-0.136,9.738,-0.002,0.007,9.807,0.091,-0.144,0.005,-0.2,-0.2,11.6,5.053,-21.4,-15.8,-49.9,127.2,0,0,47.97
-0.014,0.187,9.702,0.008,0.033,9.807,-0.022,0.155,-0.028,-0.4,-0.4,15.3,5.137,-20.9,-15.1,-51.1,125.3,-0.2,0,47.97
0.027,0.061,9.705,0.014,0.032,9.807,0.013,0.029,-0.023,-0.3,-0.3,13.7,5.221,-21,-14.7,-51.7,125.3,-0.2,-0.1,47.97
-0.014,-0.094,9.719,0.011,0.006,9.807,-0.025,-0.1,-0.009,0,-0.2,17.2,5.474,-20.8,-13.6,-52.4,123.7,0,-0.1,47.97
-0.037,0.166,9.7,0.008,0.023,9.807,-0.045,0.143,-0.024,-0.1,-0.1,18.2,5.474,-20.6,-12.8,-52.6,121.6,-0.1,0,47.95
-0.085,-0.036,9.743,-0.001,0.027,9.807,-0.084,-0.063,0.012,0.2,-0.1,15.8,5.389,-20.2,-11.4,-52.4,118.5,-0.2,0,47.95
0.029,-0.16,9.695,0.004,0.009,9.807,0.025,-0.169,-0.032,0.4,-0.1,17.5,5.642,-20.2,-10.6,-52,118.7,-0.1,0,47.95
0.039,0.094,9.731,0.02,0.012,9.807,0.019,0.083,-0.004,-0.6,0,24.4,5.642,-20,-8.9,-51.2,114.2,-0.1,-0.1,47.95
0.132,-0.02,9.75,0.033,0.004,9.807,0.099,-0.023,0.014,-0.2,0,25.5,5.642,-20.1,-7.9,-50.6,111.9,0,-0.2,48.04
-0.156,0.259,9.731,0.012,0.03,9.807,-0.168,0.229,-0.005,-0.2,0,29,5.642,-20,-6.7,-50.1,109,-0.2,-0.1,48.04
0.013,-0.025,9.74,0.017,0.013,9.807,-0.004,-0.037,0.004,-0.2,-0.1,23.8,5.811,-19.6,-4.7,-49.4,103.9,-0.1,-0.1,48.04
-0.049,0.213,9.731,0.008,0.031,9.807,-0.057,0.182,-0.008,-0.4,-0.1,25.3,5.811,-19.4,-2.3,-48.7,95.6,-0.2,0,48.14
-0.037,0.199,9.719,0.005,0.047,9.807,-0.042,0.153,-0.018,-0.2,-0.1,22.9,5.389,-19.3,-1.2,-48.4,92.3,-0.3,0,48.14
0.001,0.071,9.724,0.024,0.052,9.806,-0.023,0.019,-0.015,-0.2,-0.2,17.5,5.474,-18.8,1.1,-47.6,86.2,-0.3,-0.1,48.14
0.055,0.025,9.74,0.031,0.046,9.806,0.025,-0.02,0.001,-0.4,-0.1,17.6,5.811,-18.4,2,-47.5,82.9,-0.3,-0.2,48.09
0.079,0.109,9.714,0.043,0.046,9.806,0.037,0.063,-0.03,-0.3,-0.1,19.8,5.811,-17.6,3.9,-46.9,76.7,-0.3,-0.3,48.09
0.105,0.033,9.728,0.052,0.042,9.806,0.054,-0.009,-0.014,-0.1,-0.1,20.3,5.895,-17.1,5,-46.5,72.8,-0.2,-0.3,48.09
0.151,0.002,9.714,0.08,0.027,9.806,0.072,-0.025,-0.031,-0.6,-0.2,22.9,6.568,-15.9,6.7,-45.6,65.5,-0.2,-0.5,46.59
0.015,-0.125,9.688,0.075,0.003,9.806,-0.059,-0.127,-0.051,-0.5,-0.1,24.8,5.979,-15.2,7.6,-45.5,61.3,0,-0.4,46.59
-0.166,0.373,9.831,0.051,0.033,9.806,-0.216,0.34,0.088,0,0,27,5.979,-13.6,8.9,-44.4,56.4,-0.2,-0.3,46.59
0.041,-0.036,9.778,0.052,0.021,9.806,-0.01,-0.058,0.031,-0.6,-0.2,17.8,6.4,-13,9.4,-43.9,54.5,-0.1,-0.3,46.59
0.103,0.075,9.719,0.059,0.033,9.806,0.045,0.043,-0.025,0.1,-0.1,14.4,8.084,-12.4,9.8,-43.3,49.3,-0.2,-0.3,42.39
0.108,0.033,9.662,0.066,0.033,9.806,0.042,0,-0.073,0.1,-0.1,15.2,8.084,-11.2,10.7,-41.9,43.9,-0.2,-0.4,42.39
0.096,-0.041,9.667,0.077,-0.008,9.806,0.02,-0.034,-0.066,-0.4,-0.2,18.8,11.032,-10.4,10.9,-41.6,41.4,0,-0.4,42.39
0.12,0.044,9.766,0.083,-0.006,9.806,0.037,0.051,0.031,-0.2,-0.1,21.8,11.032,-9.3,11.3,-40.7,38.3,0,-0.5,41.16
0.172,-0.008,9.716,0.088,-0.002,9.806,0.085,-0.006,-0.025,0,-0.1,21.4,11.284,-7.7,11.6,-39.4,32.5,0,-0.5,41.16
-0.009,0.094,9.667,0.078,0.004,9.806,-0.086,0.09,-0.067,-0.4,-0.1,23.8,11.284,-7.1,11.7,-39.1,29.1,0,-0.5,41.16
0.096,-0.094,9.743,0.081,-0.026,9.806,0.015,-0.068,0.01,-0.3,-0.2,16.9,11.874,-6.4,11.6,-39,25.5,0.1,-0.5,43.2
0.072,-0.017,9.755,0.082,-0.029,9.806,-0.009,0.011,0.019,-0.2,-0.2,14.8,8.168,-5.2,11.4,-38.4,23.3,0.2,-0.5,43.2
-0.006,0.156,9.752,0.076,-0.016,9.806,-0.082,0.172,0.006,0,-0.1,16,6.821,-4.5,11.2,-38.3,18.7,0.2,-0.5,43.2
0.117,0.035,9.736,0.082,-0.012,9.806,0.035,0.047,-0.009,-0.1,-0.2,14.2,6.821,-3.6,11,-38,18.6,0.1,-0.5,41.32
0.053,-0.041,9.726,0.085,-0.012,9.806,-0.031,-0.029,-0.005,-0.2,-0.3,13.2,6.821,-3.3,10.9,-38,13.7,0,-0.5,41.32
0.034,-0.16,9.678,0.081,-0.032,9.806,-0.047,-0.129,-0.047,-0.1,-0.2,13.2,6.063,-2.3,10.4,-37.8,9.7,0.2,-0.5,41.32
0.186,-0.203,9.747,0.089,-0.051,9.806,0.048,-0.138,-0.01,0,-0.2,16.9,6.484,-2,10.4,-37.8,9.6,0.3,-0.5,42.03
0.065,-0.11,9.712,0.098,-0.078,9.806,-0.032,-0.033,-0.013,-0.3,-0.2,18.9,6.484,-1.1,10.2,-37.4,3.7,0.5,-0.6,42.03
0.086,-0.008,9.812,0.097,-0.075,9.806,-0.01,0.067,0.077,-0.3,-0.2,17.4,6.484,-0.8,10.2,-37.4,3.7,0.4,-0.6,42.03
0.075,-0.077,9.683,0.092,-0.078,9.806,-0.017,0.001,-0.047,-0.2,-0.2,17.1,6.568,0.1,9.7,-37.5,358,0.5,-0.5,42.03
0.075,0.006,9.719,0.09,-0.072,9.806,-0.015,0.078,-0.01,0,-0.1,16.2,7.579,0.4,9.7,-37.6,357.9,0.4,-0.5,42.03
0.025,-0.139,9.702,0.087,-0.091,9.806,-0.062,-0.048,-0.019,-0.2,-0.2,14.4,9.011,1.1,9.3,-37.8,351.2,0.5,-0.5,44.08
0.046,0.097,9.802,0.083,-0.073,9.806,-0.037,0.169,0.072,-0.2,-0.2,13.7,9.011,1.3,8.9,-38.1,351.4,0.4,-0.5,44.08
0.115,-0.125,9.766,0.089,-0.087,9.806,0.026,-0.038,0.026,-0.1,-0.2,11.9,9.6,2.1,8.2,-38.6,342.9,0.5,-0.5,44.08
0.091,-0.017,9.752,0.091,-0.083,9.806,0.001,0.065,0.01,-0.4,-0.3,13.9,9.6,2.6,7.9,-38.9,336.3,0.5,-0.5,41.81
0.194,-0.194,9.714,0.109,-0.097,9.806,0.085,-0.097,-0.025,-0.1,-0.2,11.1,11.368,2.9,7.3,-39.8,332.4,0.6,-0.6,41.81
0.044,-0.048,9.75,0.103,-0.095,9.806,-0.059,0.046,0.01,-0.3,-0.2,13,13.811,3.2,7,-40.4,332.6,0.6,-0.6,41.81
0.122,-0.027,9.769,0.116,-0.103,9.805,0.007,0.075,0.035,-0.4,-0.3,13.1,15.242,3.7,6.1,-41.9,321,0.6,-0.7,41.09
0.11,-0.096,9.762,0.117,-0.107,9.805,-0.006,0.01,0.025,-0.2,-0.2,12.6,15.242,3.5,5.6,-42.8,327.6,0.6,-0.7,41.09
0.125,-0.141,9.738,0.115,-0.132,9.805,0.01,-0.011,0.002,0,-0.2,13,16.589,3.2,4.8,-44.3,321.4,0.8,-0.7,41.09
0.077,-0.127,9.783,0.111,-0.133,9.805,-0.034,0.005,0.042,0,-0.2,13.7,18.021,3.4,4.3,-45.5,314,0.8,-0.7,41.09
0.065,-0.086,9.774,0.102,-0.146,9.805,-0.037,0.058,0.021,-0.3,-0.2,16.2,19.284,3.3,2.6,-48.1,303.2,0.9,-0.6,41.91
0.079,0.087,9.74,0.099,-0.124,9.805,-0.019,0.21,-0.011,-0.2,-0.1,15.7,19.284,3.5,2.1,-49.6,286.9,0.7,-0.6,41.91
0.155,-0.279,9.719,0.095,-0.131,9.805,0.061,-0.149,-0.034,-0.3,-0.3,7.6,19.705,3.1,0.8,-53.1,274.8,0.8,-0.6,41.91
0.208,-0.213,9.781,0.109,-0.142,9.805,0.099,-0.071,0.025,0,-0.2,9.6,19.958,3,0.1,-55.1,257.5,0.8,-0.6,44.31
0.089,0.066,9.686,0.095,-0.115,9.806,-0.006,0.18,-0.055,-0.2,-0.1,13.3,19.958,2.6,-1.2,-59.8,244.5,0.7,-0.6,44.31
0.077,-0.117,9.769,0.093,-0.118,9.806,-0.015,0,0.025,0,-0.1,11.7,20.126,2.4,-1.7,-62.5,223.3,0.7,-0.5,44.31
0.077,-0.191,9.764,0.092,-0.127,9.805,-0.015,-0.065,0.017,0,-0.2,11.4,20.211,1.5,-2.6,-67.3,202.9,0.7,-0.5,42.55
0.103,-0.141,9.697,0.094,-0.131,9.805,0.01,-0.011,-0.044,-0.1,-0.2,13.9,20.379,1.1,-2.9,-69.7,203,0.8,-0.5,42.55
-0.009,-0.182,9.719,0.081,-0.139,9.805,-0.089,-0.043,-0.021,0.1,-0.2,14,20.379,0.5,-3.3,-74.2,188.6,0.8,-0.5,42.55
0.084,-0.108,9.7,0.081,-0.136,9.805,0.004,0.027,-0.035,0.1,-0.1,13.9,20.463,0.2,-3.3,-76.5,188.8,0.8,-0.5,41.62
0.055,0.011,9.721,0.074,-0.113,9.806,-0.018,0.123,-0.013,-0.1,-0.3,8.5,20.547,-0.2,-2.9,-80.4,188.7,0.7,-0.4,41.62
0.098,-0.153,9.695,0.078,-0.117,9.806,0.021,-0.037,-0.035,0.2,-0.2,4.7,20.968,-0.3,-2.8,-82.2,189.3,0.7,-0.5,41.62
-0.016,-0.136,9.738,0.064,-0.121,9.806,-0.08,-0.016,0,-0.1,-0.2,6.9,20.968,0,-2.2,-85.1,190.4,0.7,-0.4,41.51
0.067,-0.167,9.84,0.066,-0.127,9.806,0.001,-0.041,0.091,0.1,-0.3,5.3,20.968,0.1,-2,-86.5,190.7,0.7,-0.4,41.51
-0.004,-0.217,9.736,0.061,-0.141,9.805,-0.064,-0.077,-0.013,0.1,-0.2,4.3,20.884,0.5,-1.4,-88.6,193.5,0.8,-0.4,41.51
0.02,-0.141,9.783,0.058,-0.141,9.805,-0.038,-0.001,0.031,0,-0.2,3.5,20.884,0.7,-1,-89.6,213.7,0.8,-0.3,40.52
0.134,0.009,9.695,0.075,-0.123,9.806,0.06,0.131,-0.053,-0.1,-0.3,2.4,20.8,1.6,-0.1,-90.9,247.1,0.7,-0.4,40.52
0.117,-0.151,9.733,0.083,-0.127,9.805,0.035,-0.024,-0.013,-0.1,-0.4,0.2,21.221,1.8,0.7,-91.2,266.3,0.7,-0.5,40.52
0.082,-0.141,9.771,0.082,-0.146,9.805,0.001,0.004,0.024,0.2,-0.3,0.9,20.968,2.2,1.8,-92.3,282.9,0.9,-0.5,41.2
0.089,-0.048,9.738,0.085,-0.134,9.805,0.004,0.085,-0.008,0,-0.4,1.7,20.968,2.6,2.3,-92.7,280.8,0.8,-0.5,41.2
0.105,-0.179,9.733,0.088,-0.145,9.805,0.018,-0.035,-0.007,0.1,-0.3,0,21.053,2.8,3.1,-93.1,293,0.8,-0.5,41.2
0.07,-0.158,9.702,0.089,-0.146,9.805,-0.019,-0.013,-0.034,0,-0.3,0,20.884,2.8,3.2,-93.1,292.7,0.9,-0.5,40.32
0.053,-0.17,9.731,0.09,-0.149,9.805,-0.036,-0.021,-0.006,-0.1,-0.3,0,21.137,2.9,3.5,-93.4,292.3,0.9,-0.5,40.32
0.046,-0.196,9.755,0.088,-0.155,9.805,-0.042,-0.042,0.016,0.1,-0.3,0,21.137,3.1,3.3,-93.5,291.8,0.9,-0.5,40.32
0.06,-0.148,9.626,0.089,-0.15,9.805,-0.028,0.001,-0.106,0.1,-0.3,0,21.305,2.9,3.1,-93.5,292,0.9,-0.5,39.91
0.036,-0.165,9.681,0.086,-0.15,9.805,-0.049,-0.016,-0.046,0.3,-0.2,0,21.642,3.1,3.2,-93.2,292.4,0.9,-0.5,39.91
0.032,-0.191,9.669,0.081,-0.153,9.805,-0.048,-0.039,-0.076,-0.1,-0.3,0,21.642,3,3.3,-93.4,292.4,0.9,-0.5,39.91
0.065,-0.177,9.776,0.082,-0.156,9.805,-0.017,-0.022,0.028,0,-0.3,0,22.232,2.9,3.7,-93.4,303.7,0.9,-0.5,39.91
0.063,-0.139,9.724,0.086,-0.153,9.805,-0.023,0.014,-0.021,0.1,-0.3,0,22.316,2.9,3.5,-93.4,303.4,0.9,-0.5,41.43
0.041,-0.172,9.759,0.084,-0.154,9.805,-0.042,-0.019,0.013,0.1,-0.3,0,22.737,3.1,3.5,-93.2,292,0.9,-0.5,41.43
0.108,-0.167,9.778,0.09,-0.155,9.805,0.019,-0.013,0.028,0.1,-0.3,0,22.737,3.3,3.5,-93.4,291.7,0.9,-0.5,41.43
0.029,-0.167,9.759,0.086,-0.151,9.805,-0.056,-0.017,0.009,0.1,-0.3,0,22.989,3,3.4,-93.5,292.3,0.9,-0.5,38.83
0.067,-0.175,9.8,0.086,-0.155,9.805,-0.018,-0.021,0.043,0.1,-0.3,0,23.326,3.2,3.2,-93.5,291.9,0.9,-0.5,38.83
0.067,-0.198,9.747,0.087,-0.159,9.805,-0.019,-0.04,-0.008,0.1,-0.3,0,23.326,3.4,3.4,-93.5,291.3,0.9,-0.5,38.83
0.055,-0.115,9.762,0.088,-0.15,9.805,-0.032,0.034,0.006,0.1,-0.3,0,23.326,3.5,3.7,-93.7,303.2,0.9,-0.5,39.5
0.07,-0.179,9.707,0.089,-0.152,9.805,-0.019,-0.028,-0.043,0.1,-0.3,0,23.326,2.9,4,-93.3,303.6,0.9,-0.5,39.5
0.07,-0.205,9.814,0.09,-0.157,9.805,-0.02,-0.049,0.057,0.1,-0.3,0,23.074,2.8,4,-93.2,303.1,0.9,-0.5,39.5
0.082,-0.158,9.745,0.094,-0.156,9.805,-0.012,-0.003,-0.008,0.1,-0.3,0,23.074,2.9,4,-93,303,0.9,-0.5,40.74
0.039,-0.175,9.695,0.095,-0.158,9.805,-0.02,-0.02,-0.001,-0.2,-0.3,0,23.158,3.1,3.8,-93.2,302.7,0.9,-0.6,40.74
